{
  "id": "d7661df8-6bb0-11ed-a340-acde48001122",
  "entry": [
    {
      "fullUrl": "urn:uuid:d765ef90-6bb0-11ed-a340-acde48001122",
      "request": {
        "method": "PUT",
        "url": "ServiceRequest/d765ef90-6bb0-11ed-a340-acde48001122"
      },
      "resource": {
        "id": "d765ef90-6bb0-11ed-a340-acde48001122",
        "meta": {
          "profile": [
            "http://draft.hl7.org.au/fhir/diagnostic-orders/StructureDefinition/eorders-diagnosticrequest"
          ]
        },
        "contained": [
          {
            "id": "pregnant",
            "meta": {
              "profile": [
                "http://hl7.org.au/fhir/core/StructureDefinition/au-core-pregnancystatus"
              ]
            },
            "category": [
                {
                "coding": [
                  {
                    "code": "social-history",
                    "display": "Social History",
                    "system": "http://terminology.hl7.org/CodeSystem/observation-category"
                  }
                ],
                "text": "Pregnancy status"
              }
            ],
            "code": {
              "coding": [
                {
                  "code": "82810-3",
                  "display": "Pregnancy status",
                  "system": "http://loinc.org"
                }
              ],
              "text": "Pregnancy status"
            },
            "effectiveDateTime": "2022-11-24T14:31:19+10:00",
            "status": "final",
            "subject": {
              "display": "Stacey Thompson",
              "reference": "Patient/b7119adc-6bb0-11ed-a340-acde48001122"
            },
            "valueCodeableConcept": {
              "coding": [
                {
                  "code": "77386006",
                  "display": "Pregnancy confirmed",
                  "system": "http://snomed.info/sct"
                }
              ],
              "text": "Pregnant"
            },
            "resourceType": "Observation"
          },
          {
            "id": "LMPDate",
            "meta": {
              "profile": [
                "http://hl7.org.au/fhir/core/StructureDefinition/au-core-lastmenstrualperiod"
              ]
            },
            "category" : [
              {
                "coding" : [
                  {
                    "system" : "http://terminology.hl7.org/CodeSystem/observation-category",
                    "code" : "survey"
                  }
                ]
              }
            ],
            "code": {
              "coding": [
                {
                  "code": "21840007",
                  "display": "Date of last menstrual period",
                  "system": "http://snomed.info/sct"
                }
              ],
              "text": "Date of last menstrual period"
            },
            "effectiveDateTime": "2022-11-24T14:31:19+10:00",
            "status": "final",
            "subject": {
              "display": "Stacey Thompson",
              "reference": "Patient/b7119adc-6bb0-11ed-a340-acde48001122"
            },
            "valueDateTime": "2022-11-06",
            "resourceType": "Observation"
          },
          {
            "id": "GestAge",
            "meta": {
              "profile": [
                "http://hl7.org.au/fhir/core/StructureDefinition/au-core-gestationalage"
              ]
            },
            "category" : [
              {
                "coding" : [
                  {
                    "system" : "http://terminology.hl7.org/CodeSystem/observation-category",
                    "code" : "imaging",
                    "display" : "Imaging"
                  }
                ]
              }
            ],
            "code": {
              "coding": [
                {
                  "code": "57036006",
                  "display": "Fetal gestational age",
                  "system": "http://snomed.info/sct"
                },
                {
                  "code": "11885-1",
                  "display": "Gestational age Estimated from last menstrual period",
                  "system": "http://loinc.org"
                }
              ],
              "text": "Gestational Age"
            },
            "effectiveDateTime": "2022-11-24T14:31:19+10:00",
            "focus": [
              {
                "display": "Baby of Thompson, Stacey Mrs."
              }
            ],
            "status": "final",
            "subject": {
              "display": "Stacey Thompson",
              "reference": "Patient/b7119adc-6bb0-11ed-a340-acde48001122"
            },
            "valueQuantity": {
              "code": "d",
              "system": "http://unitsofmeasure.org",
              "unit": "day",
              "value": 18.0
            },
            "resourceType": "Observation"
          },
          {
            "id": "billingCoverage",
            "meta": {
              "profile": [
                "http://draft.hl7.org.au/fhir/diagnostic-orders/StructureDefinition/eorders-coverage"
              ]
            },
            "beneficiary": {
              "display": "Stacey Thompson",
              "reference": "Patient/b7119adc-6bb0-11ed-a340-acde48001122"
            },
            "payor": [
              {
                "display": "Department of Veterans' Affairs",
                "type": "Organization"
              }
            ],
            "status": "active",
            "type": {
              "coding": [
                {
                  "code": "VET",
                  "display": "veteran health program",
                  "system": "http://terminology.hl7.org/CodeSystem/v3-ActCode"
                }
              ],
              "text": "DVA"
            },
            "resourceType": "Coverage"
          },
          {
            "id": "patientEncounter",
            "class": {
              "code": "AMB",
              "display": "ambulatory",
              "system": "http://terminology.hl7.org/CodeSystem/v3-ActCode"
            },
            "status": "finished",
            "resourceType": "Encounter"
          }
        ],
        "extension": [
          {
            "url": "http://hl7.org/fhir/StructureDefinition/servicerequest-precondition",
            "valueCodeableConcept": {
              "coding": [
                {
                  "code": "726054005",
                  "display": "After fasting",
                  "system": "http://snomed.info/sct"
                }
              ],
              "text": "Fasting"
            }
          },
          {
            "url": "http://hl7.org.au/fhir/StructureDefinition/result-copies-to",
            "valueReference": {
              "identifier": {
                "type": {
                  "coding": [
                    {
                      "code": "UPIN",
                      "system": "http://terminology.hl7.org.au/CodeSystem/v2-0203"
                    }
                  ],
                  "text": "Medicare Provider Number"
                },
                "system": "http://ns.electronichealth.net.au/id/medicare-provider-number",
                "value": "225456HT"
              },
              "type": "PractitionerRole",
              "display": "Dr Peter Fields"
            }
          }
        ],
        "authoredOn": "2022-11-24T14:31:19+10:00",
        "category": [
          {
            "coding": [
              {
                "code": "108252007",
                "display": "Laboratory procedure",
                "system": "http://snomed.info/sct"
              }
            ],
            "text": "Laboratory procedure"
          }
        ],
        "code": {
          "coding": [
            {
              "code": "269820002",
              "display": "Serum iron tests",
              "system": "http://snomed.info/sct"
            }
          ],
          "text": "Serum iron tests"
        },
        "encounter": {
          "reference": "#patientEncounter",
          "type": "Encounter"
        },
        "insurance": [
          {
            "reference": "#billingCoverage",
            "type": "Coverage"
          }
        ],
        "intent": "order",
        "note": [
          {
            "text": "a note"
          }
        ],
        "patientInstruction": "some instructions",
        "priority": "urgent",
        "quantityQuantity": {
          "value": 1
        },
        "requester": {
          "reference": "PractitionerRole/b7112d90-6bb0-11ed-a340-acde48001122"
        },
        "requisition": {
          "assigner": {
            "display": "Jonathanport Medical Centre",
            "reference": "Organization/b7112098-6bb0-11ed-a340-acde48001122"
          },
          "system": "http://ns.electronichealth.net.au/id/hpio-scoped/order/1.0/8003626126014481",
          "type": {
            "coding": [
              {
                "code": "PGN",
                "display": "Placer Group Number",
                "system": "http://terminology.hl7.org/CodeSystem/v2-0203"
              }
            ],
            "text": "Placer Group Number"
          },
          "value": "GTU06816-A0275"
        },
        "status": "active",
        "subject": {
          "display": "Stacey Thompson",
          "reference": "Patient/b7119adc-6bb0-11ed-a340-acde48001122"
        },
        "supportingInfo": [
          {
            "reference": "#pregnant",
            "type": "Observation"
          },
          {
            "reference": "#LMPDate",
            "type": "Observation"
          },
          {
            "reference": "#GestAge",
            "type": "Observation"
          }
        ],
        "resourceType": "ServiceRequest"
      }
    },
    {
      "fullUrl": "urn:uuid:d7660926-6bb0-11ed-a340-acde48001122",
      "request": {
        "method": "PUT",
        "url": "Consent/d7660926-6bb0-11ed-a340-acde48001122"
      },
      "resource": {
        "id": "d7660926-6bb0-11ed-a340-acde48001122",
        "meta": {
          "profile": [
            "http://draft.hl7.org.au/fhir/diagnostic-orders/StructureDefinition/eorders-consentwithdrawl"
          ]
        },
        "category": [
          {
            "coding": [
              {
                "code": "IDSCL",
                "system": "http://terminology.hl7.org/CodeSystem/v3-ActCode"
              }
            ],
            "text": "IDSCL"
          }
        ],
        "dateTime": "2022-11-24T14:31:19+10:00",
        "organization": [
          {
            "display": "Jonathanport Medical Centre",
            "reference": "Organization/b7112098-6bb0-11ed-a340-acde48001122"
          }
        ],
        "patient": {
          "display": "Stacey Thompson",
          "reference": "Patient/b7119adc-6bb0-11ed-a340-acde48001122"
        },
        "performer": [
          {
            "display": "Stacey Thompson",
            "reference": "Patient/b7119adc-6bb0-11ed-a340-acde48001122"
          }
        ],
        "policyRule": {
          "coding": [
            {
              "code": "OPTIN",
              "system": "http://terminology.hl7.org/CodeSystem/v3-ActCode"
            }
          ],
          "text": "Opt-in"
        },
        "provision": {
          "action": [
            {
              "coding": [
                {
                  "code": "disclose",
                  "system": "http://terminology.hl7.org/CodeSystem/consentaction"
                }
              ],
              "text": "Diagnostic Report"
            }
          ],
          "class": [
            {
              "code": "DiagnosticReport",
              "system": "http://hl7.org/fhir/resource-types"
            }
          ],
          "data": [
            {
              "meaning": "dependents",
              "reference": {
                "reference": "ServiceRequest/d765ef90-6bb0-11ed-a340-acde48001122"
              }
            }
          ],
          "type": "deny"
        },
        "scope": {
          "coding": [
            {
              "code": "patient-privacy",
              "display": "Privacy Consent",
              "system": "http://terminology.hl7.org/CodeSystem/consentscope"
            }
          ],
          "text": "Patient Privacy"
        },
        "status": "active",
        "resourceType": "Consent"
      }
    },
    {
      "fullUrl": "urn:uuid:d7661d80-6bb0-11ed-a340-acde48001122",
      "request": {
        "method": "PUT",
        "url": "Task/d7661d80-6bb0-11ed-a340-acde48001122"
      },
      "resource": {
        "id": "d7661d80-6bb0-11ed-a340-acde48001122",
        "meta": {
          "profile": [
            "http://draft.hl7.org.au/fhir/diagnostic-orders/StructureDefinition/eorders-diagnosticrequesttask"
          ]
        },
        "authoredOn": "2022-11-24T14:31:19+10:00",
        "code": {
          "coding": [
            {
              "code": "fulfill",
              "display": "Fulfill the focal request",
              "system": "http://hl7.org/fhir/CodeSystem/task-code"
            }
          ],
          "text": "Fulfill"
        },
        "description": "Claim the referenced ServiceRequest for completion",
        "focus": {
          "reference": "ServiceRequest/d765ef90-6bb0-11ed-a340-acde48001122"
        },
        "for": {
          "display": "Stacey Thompson",
          "reference": "Patient/b7119adc-6bb0-11ed-a340-acde48001122"
        },
        "groupIdentifier": {
          "assigner": {
            "display": "Jonathanport Medical Centre",
            "reference": "Organization/b7112098-6bb0-11ed-a340-acde48001122"
          },
          "system": "http://ns.electronichealth.net.au/id/hpio-scoped/order/1.0/8003626126014481",
          "type": {
            "coding": [
              {
                "code": "PGN",
                "display": "Placer Group Number",
                "system": "http://terminology.hl7.org/CodeSystem/v2-0203"
              }
            ],
            "text": "Placer Group Number"
          },
          "value": "GTU06816-A0275"
        },
        "intent": "order",
        "owner": {
          "display": "Sullivan Nicolaides Pathology",
          "reference": "Organization/67904f84-aeac-44e5-a9ec-50bbb1087977"
        },
        "priority": "routine",
        "requester": {
          "reference": "PractitionerRole/b7112d90-6bb0-11ed-a340-acde48001122"
        },
        "status": "requested",
        "resourceType": "Task"
      }
    },
    {
      "fullUrl": "urn:uuid:b7119adc-6bb0-11ed-a340-acde48001122",
      "request": {
        "method": "PUT",
        "url": "Patient/b7119adc-6bb0-11ed-a340-acde48001122"
      },
      "resource": {
        "id": "b7119adc-6bb0-11ed-a340-acde48001122",
        "meta": {
          "lastUpdated": "2022-11-24T04:30:24.846+00:00",
          "profile": [
            "http://draft.hl7.org.au/fhir/diagnostic-orders/StructureDefinition/gs-patient"
          ],
          "source": "#UJFNAa6DHNNs53No",
          "versionId": "1"
        },
        "text": {
          "div": "<div xmlns=\"http://www.w3.org/1999/xhtml\"><div class=\"hapiHeaderText\">Mrs. Stacey <b>THOMPSON </b></div><table class=\"hapiPropertyTable\"><tbody><tr><td>Identifier</td><td>31169597700</td></tr><tr><td>Address</td><td><span>Level 2 6 Jacob Distributor </span><br/><span>Kentfurt </span><span>TAS </span><span>AU </span></td></tr><tr><td>Date of birth</td><td><span>03 May 1935</span></td></tr></tbody></table></div>",
          "status": "generated"
        },
        "active": true,
        "address": [
          {
            "city": "Kentfurt",
            "country": "AU",
            "line": [
              "Level 2 6 Jacob Distributor"
            ],
            "postalCode": "2658",
            "state": "TAS",
            "text": "Level 2 6 Jacob Distributor\nKentfurt, TAS, 2658",
            "type": "physical",
            "use": "home"
          }
        ],
        "birthDate": "1935-05-03",
        "deceasedBoolean": false,
        "gender": "female",
        "generalPractitioner": [
          {
            "reference": "PractitionerRole/b7112d90-6bb0-11ed-a340-acde48001122"
          }
        ],
        "identifier": [
          {
            "system": "http://ns.electronichealth.net.au/id/medicare-number",
            "type": {
              "coding": [
                {
                  "code": "MC",
                  "display": "Patient's Medicare Number",
                  "system": "http://terminology.hl7.org/CodeSystem/v2-0203"
                }
              ],
              "text": "Patient's Medicare Number"
            },
            "value": "31169597700"
          },
          {
            "system": "http://ns.electronichealth.net.au/id/hi/ihi/1.0",
            "type": {
              "coding": [
                {
                  "code": "NI",
                  "display": "National unique individual identifier",
                  "system": "http://terminology.hl7.org/CodeSystem/v2-0203"
                }
              ],
              "text": "National unique individual identifier"
            },
            "value": "8003604153845143"
          },
          {
            "system": "http://ns.electronichealth.net.au/id/dva",
            "type": {
              "coding": [
                {
                  "code": "DVAU",
                  "display": "DVA Number",
                  "system": "http://terminology.hl7.org.au/CodeSystem/v2-0203"
                }
              ],
              "text": "DVA Number"
            },
            "value": "WARX2617A"
          }
        ],
        "managingOrganization": {
          "display": "Jonathanport Medical Centre",
          "reference": "Organization/b7112098-6bb0-11ed-a340-acde48001122"
        },
        "name": [
          {
            "family": "Thompson",
            "given": [
              "Stacey"
            ],
            "prefix": [
              "Mrs."
            ],
            "text": "Stacey Thompson",
            "use": "official"
          }
        ],
        "telecom": [
          {
            "system": "phone",
            "use": "mobile",
            "value": "37755463"
          },
          {
            "system": "email",
            "use": "home",
            "value": "hdavila@example.net"
          }
        ],
        "resourceType": "Patient"
      }
    },
    {
      "fullUrl": "urn:uuid:b70f059c-6bb0-11ed-a340-acde48001122",
      "request": {
        "method": "PUT",
        "url": "Practitioner/b70f059c-6bb0-11ed-a340-acde48001122"
      },
      "resource": {
        "id": "b70f059c-6bb0-11ed-a340-acde48001122",
        "meta": {
          "lastUpdated": "2022-11-24T04:30:24.846+00:00",
          "profile": [
            "http://draft.hl7.org.au/fhir/diagnostic-orders/StructureDefinition/eorders-practitioner"
          ],
          "source": "#UJFNAa6DHNNs53No",
          "versionId": "1"
        },
        "active": true,
        "identifier": [
          {
            "system": "http://ns.electronichealth.net.au/id/hi/hpii/1.0",
            "type": {
              "coding": [
                {
                  "code": "NPI",
                  "display": "National provider identifier",
                  "system": "http://terminology.hl7.org/CodeSystem/v2-0203"
                }
              ],
              "text": "National provider identifier"
            },
            "value": "8003616961374504"
          }
        ],
        "name": [
          {
            "family": "Wright",
            "given": [
              "Trevor"
            ],
            "prefix": [
              "Dr"
            ],
            "text": "Trevor Wright",
            "use": "official"
          }
        ],
        "resourceType": "Practitioner"
      }
    },
    {
      "fullUrl": "urn:uuid:b7112d90-6bb0-11ed-a340-acde48001122",
      "request": {
        "method": "PUT",
        "url": "PractitionerRole/b7112d90-6bb0-11ed-a340-acde48001122"
      },
      "resource": {
        "id": "b7112d90-6bb0-11ed-a340-acde48001122",
        "meta": {
          "lastUpdated": "2022-11-24T04:30:24.846+00:00",
          "profile": [
            "http://draft.hl7.org.au/fhir/diagnostic-orders/StructureDefinition/eorders-practitionerrole"
          ],
          "source": "#UJFNAa6DHNNs53No",
          "versionId": "1"
        },
        "active": true,
        "identifier": [
          {
            "system": "http://ns.electronichealth.net.au/id/medicare-provider-number",
            "type": {
              "coding": [
                {
                  "code": "UPIN",
                  "display": "Medicare Provider Number",
                  "system": "http://terminology.hl7.org.au/CodeSystem/v2-0203"
                }
              ],
              "text": "Medicare Provider Number"
            },
            "value": "7135617T"
          }
        ],
        "location": [
          {
            "display": "Jonathanport Medical Centre"
          }
        ],
        "organization": {
          "display": "Jonathanport Medical Centre",
          "reference": "Organization/b7112098-6bb0-11ed-a340-acde48001122"
        },
        "practitioner": {
          "display": "Trevor Wright",
          "reference": "Practitioner/b70f059c-6bb0-11ed-a340-acde48001122"
        },
        "resourceType": "PractitionerRole"
      }
    },
    {
      "fullUrl": "urn:uuid:b7112098-6bb0-11ed-a340-acde48001122",
      "request": {
        "method": "PUT",
        "url": "Organization/b7112098-6bb0-11ed-a340-acde48001122"
      },
      "resource": {
        "id": "b7112098-6bb0-11ed-a340-acde48001122",
        "meta": {
          "lastUpdated": "2022-11-24T04:30:24.846+00:00",
          "profile": [
            "http://draft.hl7.org.au/fhir/diagnostic-orders/StructureDefinition/gs-organization"
          ],
          "source": "#UJFNAa6DHNNs53No",
          "versionId": "1"
        },
        "active": true,
        "address": [
          {
            "city": "Jonathanport",
            "country": "AU",
            "line": [
              "Apt. 473 44 Bridges Mount"
            ],
            "postalCode": "2025",
            "state": "ACT",
            "text": "Apt. 473 44 Bridges Mount\nJonathanport, ACT, 2025",
            "type": "physical",
            "use": "work"
          }
        ],
        "identifier": [
          {
            "system": "http://ns.electronichealth.net.au/id/hi/hpio/1.0",
            "type": {
              "coding": [
                {
                  "code": "NOI",
                  "display": "National Organisation Identifier",
                  "system": "http://terminology.hl7.org.au/CodeSystem/v2-0203"
                }
              ],
              "text": "HPI-O"
            },
            "value": "8003626126014481"
          }
        ],
        "name": "Jonathanport Medical Centre",
        "telecom": [
          {
            "system": "phone",
            "use": "work",
            "value": "+61.3.8788.8962"
          },
          {
            "system": "fax",
            "use": "work",
            "value": "0479-353-532"
          },
          {
            "system": "email",
            "use": "work",
            "value": "mosesmichele@example.org"
          }
        ],
        "resourceType": "Organization"
      }
    }
  ],
  "timestamp": "2022-11-24T14:31:19+10:00",
  "type": "transaction",
  "resourceType": "Bundle"
}